CLOSED						
Version	1					
Language	English					
Run	1					
RunSerial	819					
Instrument	TGA Q500 V6.7 Build 203					
Module	TGA					
InstSerial	0500-0499					
Operator	at615					
File	C:\TA\Data\TGA\ak794\anders\cellulose sponge 1.001					
FurnaceType	Standard					
Sample	Cellulose sponge 1					
Size	1.386	mg				
ProcName						
Method						
Comment						
Xcomment	Pan: Platinum					
Xcomment	Gas1: Air					
Xcomment	Gas2: Air					
Xcomment	Balance Gas: Air 40.0 ml/min					
Xcomment	Sample Gas: Air 60.0 ml/min					
Text	cellulose degradation					
Kcell	1					
TempCal	3	pts	20	"20.00,364.00"	"356.00,776.00"	770
InstCalDate	Weight Date 2013-03-01 10:10:44					
Controls	Gas 2  Event Off  Sampling 2.0					
Nsig	3					
Sig1	Time (min)					
Sig2	Temperature (°C)					
Sig3	Weight (mg)					
AirCoolTime	20.0 min					
AutoAnalysis	Off					
MacroFile						
Date	11/03/2013					
Time	09:57:57					
OrgMethod	1: Ramp 10.00 °C/min to 600.00 °C					
OrgFile	C:\Users\AIM_Group\Desktop\post doc cambridge\Students files\Internships\Anders\anders tga\anders\cellulose sponge 1.001					
.001116667 16.12102 1.385537						
0.01666667 16.11489 1.385613						
0.05000000 16.12762 1.384716						
0.08333334 16.16981 1.384657						
0.1166666 16.23988 1.384745						
0.1500000 16.33607 1.384919						
0.1833334 16.45608 1.385500						
0.2166667 16.59942 1.385064						
0.2500000 16.75990 1.384953						
0.2833333 16.93966 1.384935						
0.3166666 17.13296 1.385181						
0.3500000 17.34126 1.385574						
0.3833333 17.55793 1.385579						
0.4166666 17.78898 1.386154						
0.4500000 18.02719 1.385475						
0.4833333 18.27466 1.384888						
0.5166666 18.53028 1.384789						
0.5500000 18.79226 1.384944						
0.5833332 19.06101 1.385419						
0.6166668 19.33569 1.385266						
0.6500000 19.61532 1.385001						
0.6833334 19.90023 1.384817						
0.7166666 20.18973 1.384586						
0.7500000 20.48387 1.384631						
0.7833334 20.78066 1.384348						
0.8166668 21.08113 1.384352						
0.8500000 21.38586 1.384271						
0.8833332 21.69136 1.383884						
0.9166668 22.00075 1.383828						
0.9500000 22.31467 1.383469						
0.9833334 22.62752 1.383208						
1.016667 22.94196 1.382652						
1.050000 23.25895 1.382398						
1.083334 23.57940 1.382299						
1.116667 23.89786 1.381861						
1.150000 24.21860 1.381809						
1.183333 24.54033 1.381684						
1.216667 24.86278 1.381670						
1.250000 25.18663 1.381581						
1.283333 25.51014 1.381372						
1.316667 25.83473 1.381280						
1.350000 26.15947 1.380867						
1.383333 26.48392 1.380864						
1.416666 26.80970 1.380968						
1.450000 27.13429 1.380769						
1.483334 27.45996 1.380808						
1.516666 27.78466 1.380546						
1.550000 28.11009 1.379946						
1.583334 28.43258 1.379228						
1.616666 28.75978 1.379038						
1.650000 29.08506 1.378899						
1.683333 29.40957 1.378700						
1.716667 29.73313 1.378565						
1.750000 30.05812 1.378168						
1.783333 30.38159 1.378040						
1.816667 30.70608 1.377702						
1.850000 31.02858 1.377417						
1.883334 31.35352 1.377410						
1.916666 31.67724 1.376983						
1.950000 32.00027 1.376986						
1.983334 32.32315 1.376706						
2.016666 32.64728 1.376517						
2.050000 32.97095 1.376455						
2.083333 33.29314 1.376284						
2.116666 33.61575 1.376082						
2.150000 33.93761 1.375768						
2.183334 34.26062 1.375512						
2.216667 34.58154 1.375326						
2.250000 34.90424 1.375132						
2.283333 35.22634 1.374996						
2.316666 35.54861 1.374653						
2.350000 35.87195 1.374407						
2.383334 36.19306 1.374130						
2.416667 36.51555 1.374082						
2.450000 36.83790 1.374064						
2.483334 37.15895 1.373934						
2.516666 37.48234 1.373892						
2.550000 37.80300 1.373608						
2.583333 38.12654 1.373390						
2.616666 38.44908 1.373294						
2.650000 38.77130 1.373241						
2.683334 39.09487 1.373148						
2.716667 39.41678 1.372758						
2.750000 39.74040 1.372498						
2.783333 40.06288 1.372349						
2.816666 40.38716 1.372354						
2.850000 40.71009 1.372407						
2.883334 41.03363 1.372249						
2.916667 41.35887 1.372012						
2.950000 41.68174 1.371601						
2.983334 42.00461 1.371345						
3.016666 42.32910 1.371208						
3.050000 42.65356 1.370932						
3.083333 42.97783 1.370775						
3.116666 43.30124 1.370484						
3.150000 43.62648 1.370420						
3.183334 43.95220 1.370697						
3.216667 44.27720 1.370572						
3.250000 44.60292 1.370496						
3.283333 44.92880 1.369989						
3.316666 45.25329 1.369819						
3.350000 45.57969 1.369568						
3.383334 45.90626 1.369515						
3.416667 46.23270 1.369587						
3.450000 46.55920 1.369368						
3.483333 46.88630 1.369195						
3.516667 47.21283 1.369306						
3.550000 47.53969 1.369133						
3.583333 47.86744 1.368922						
3.616666 48.19469 1.368842						
3.650000 48.52295 1.369000						
3.683334 48.85086 1.368616						
3.716667 49.17824 1.368231						
3.750000 49.50586 1.368068						
3.783333 49.83482 1.368368						
3.816666 50.16412 1.368336						
3.850000 50.49150 1.367970						
3.883334 50.81954 1.367390						
3.916667 51.14804 1.366941						
3.950000 51.47619 1.367058						
3.983333 51.80616 1.366792						
4.016667 52.13550 1.366536						
4.050000 52.46472 1.366227						
4.083334 52.79468 1.366042						
4.116667 53.12494 1.366178						
4.150000 53.45492 1.366052						
4.183334 53.78637 1.366317						
4.216667 54.11660 1.366348						
4.250000 54.44746 1.365882						
4.283333 54.77739 1.365666						
4.316666 55.10756 1.365095						
4.350000 55.43633 1.364589						
4.383333 55.76665 1.364622						
4.416666 56.09835 1.365146						
4.450000 56.42994 1.365156						
4.483333 56.75906 1.364398						
4.516667 57.09100 1.364563						
4.550000 57.42359 1.364995						
4.583334 57.75492 1.364742						
4.616667 58.08696 1.364419						
4.650000 58.41886 1.364408						
4.683334 58.74938 1.364213						
4.716667 59.08190 1.364362						
4.750000 59.41250 1.364167						
4.783333 59.74524 1.364316						
4.816666 60.07722 1.363886						
4.850000 60.41016 1.364456						
4.883333 60.74164 1.363964						
4.916666 61.07257 1.363418						
4.950000 61.40449 1.363372						
4.983333 61.73645 1.363208						
5.016667 62.06850 1.363114						
5.050000 62.39995 1.362852						
5.083334 62.73252 1.363010						
5.116667 63.06402 1.362712						
5.150000 63.39639 1.362509						
5.183334 63.72916 1.362651						
5.216667 64.06360 1.363068						
5.250000 64.39901 1.363848						
5.283332 64.73127 1.363170						
5.316666 65.06241 1.362508						
5.350000 65.39609 1.362526						
5.383332 65.72744 1.362278						
5.416666 66.06092 1.362424						
5.450000 66.39566 1.362430						
5.483332 66.72911 1.362505						
5.516668 67.06296 1.362553						
5.550000 67.39500 1.362064						
5.583334 67.72626 1.361692						
5.616668 68.06137 1.361966						
5.650000 68.39413 1.361983						
5.683334 68.72750 1.361851						
5.716668 69.06048 1.361627						
5.750000 69.39392 1.361545						
5.783332 69.72918 1.361776						
5.816666 70.06086 1.361603						
5.850000 70.39594 1.361400						
5.883332 70.72939 1.361319						
5.916666 71.06301 1.361304						
5.950000 71.39786 1.360991						
5.983332 71.73043 1.360913						
6.016668 72.06360 1.360841						
6.050000 72.39710 1.360644						
6.083334 72.72982 1.360547						
6.116668 73.06412 1.360386						
6.150000 73.39805 1.360440						
6.183334 73.73028 1.360399						
6.216668 74.06488 1.360353						
6.250000 74.39795 1.360223						
6.283332 74.73062 1.360080						
6.316666 75.06470 1.360156						
6.350000 75.39875 1.360079						
6.383332 75.73153 1.359842						
6.416666 76.06465 1.359796						
6.450000 76.39790 1.359779						
6.483332 76.73288 1.359747						
6.516668 77.06408 1.359694						
6.550000 77.39809 1.359563						
6.583334 77.73141 1.359511						
6.616668 78.06495 1.359483						
6.650000 78.39955 1.359433						
6.683334 78.73234 1.359350						
6.716666 79.06494 1.359166						
6.750000 79.39918 1.359140						
6.783334 79.73199 1.359079						
6.816666 80.06509 1.358919						
6.850000 80.39888 1.359040						
6.883332 80.73422 1.359227						
6.916666 81.06811 1.358929						
6.950000 81.40113 1.358701						
6.983332 81.73706 1.358824						
7.016668 82.07028 1.358872						
7.050000 82.40392 1.358832						
7.083334 82.73818 1.358738						
7.116668 83.07176 1.358474						
7.150000 83.40390 1.358359						
7.183334 83.73707 1.358308						
7.216666 84.07225 1.358532						
7.250000 84.40587 1.358456						
7.283334 84.73866 1.358153						
7.316666 85.07019 1.357964						
7.350000 85.40572 1.358166						
7.383332 85.73900 1.358155						
7.416666 86.07191 1.357934						
7.450000 86.40580 1.357917						
7.483332 86.74000 1.357889						
7.516668 87.07251 1.357732						
7.550000 87.40578 1.357829						
7.583334 87.73897 1.357619						
7.616668 88.07400 1.357716						
7.650000 88.40918 1.357926						
7.683334 88.74338 1.358147						
7.716666 89.07776 1.358248						
7.750000 89.40962 1.357518						
7.783334 89.74116 1.356990						
7.816666 90.07528 1.357140						
7.850000 90.40697 1.356828						
7.883332 90.73966 1.356744						
7.916666 91.07319 1.356727						
7.950000 91.40749 1.356994						
7.983332 91.74082 1.356953						
8.016666 92.07296 1.356718						
8.050000 92.40825 1.356768						
8.083332 92.74207 1.356868						
8.116668 93.07700 1.356982						
8.150000 93.40941 1.356698						
8.183334 93.74320 1.356522						
8.216666 94.07756 1.356641						
8.250000 94.41116 1.356691						
8.283334 94.74455 1.356513						
8.316666 95.07739 1.356421						
8.350000 95.41182 1.356378						
8.383332 95.74355 1.356261						
8.416668 96.07554 1.356046						
8.450000 96.40936 1.356186						
8.483334 96.74140 1.356060						
8.516666 97.07438 1.355695						
8.550000 97.40686 1.355750						
8.583332 97.73866 1.355776						
8.616668 98.07266 1.355728						
8.650000 98.40812 1.355929						
8.683334 98.74243 1.356111						
8.716666 99.07426 1.355769						
8.750000 99.40918 1.355751						
8.783334 99.74319 1.355867						
8.816666 100.0786 1.355934						
8.850000 100.4118 1.355809						
8.883332 100.7446 1.355634						
8.916668 101.0815 1.355993						
8.950000 101.4169 1.356176						
8.983334 101.7482 1.355679						
9.016666 102.0791 1.355180						
9.050000 102.4100 1.354803						
9.083332 102.7431 1.354920						
9.116668 103.0798 1.355621						
9.150000 103.4140 1.355615						
9.183334 103.7470 1.355426						
9.216666 104.0788 1.355165						
9.250000 104.4112 1.355043						
9.283334 104.7444 1.354954						
9.316666 105.0758 1.354794						
9.350000 105.4083 1.354490						
9.383332 105.7440 1.355138						
9.416668 106.0769 1.355091						
9.450000 106.4081 1.354480						
9.483334 106.7408 1.354146						
9.516666 107.0756 1.354670						
9.550000 107.4107 1.354963						
9.583332 107.7448 1.354921						
9.616668 108.0804 1.355330						
9.650000 108.4148 1.355123						
9.683334 108.7536 1.356055						
9.716666 109.0828 1.354989						
9.750000 109.4115 1.353880						
9.783334 109.7435 1.353790						
9.816666 110.0773 1.354361						
9.850000 110.4094 1.354330						
9.883332 110.7396 1.353786						
9.916668 111.0724 1.353624						
9.950000 111.4045 1.354108						
9.983334 111.7395 1.353674						
10.01667 112.0751 1.354410						
10.05000 112.4078 1.354044						
10.08333 112.7421 1.354137						
10.11667 113.0742 1.353754						
10.15000 113.4109 1.354026						
10.18333 113.7447 1.354532						
10.21667 114.0769 1.353927						
10.25000 114.4095 1.353693						
10.28333 114.7422 1.353460						
10.31667 115.0786 1.354083						
10.35000 115.4124 1.354049						
10.38333 115.7468 1.354147						
10.41667 116.0786 1.353878						
10.45000 116.4119 1.353569						
10.48333 116.7445 1.353515						
10.51666 117.0776 1.353287						
10.55000 117.4114 1.353527						
10.58333 117.7453 1.353569						
10.61667 118.0796 1.353702						
10.65000 118.4124 1.353491						
10.68334 118.7445 1.353343						
10.71666 119.0744 1.352861						
10.75000 119.4082 1.352566						
10.78334 119.7406 1.352849						
10.81666 120.0749 1.353044						
10.85000 120.4072 1.352624						
10.88333 120.7456 1.353624						
10.91667 121.0865 1.354797						
10.95000 121.4202 1.354044						
10.98334 121.7490 1.353315						
11.01666 122.0769 1.352171						
11.05000 122.4089 1.352008						
11.08333 122.7434 1.353013						
11.11667 123.0744 1.352716						
11.15000 123.4096 1.352910						
11.18334 123.7420 1.352884						
11.21666 124.0742 1.352636						
11.25000 124.4068 1.352759						
11.28334 124.7409 1.352677						
11.31666 125.0734 1.352414						
11.35000 125.4068 1.352549						
11.38333 125.7405 1.352499						
11.41667 126.0725 1.352546						
11.45000 126.4067 1.352590						
11.48334 126.7396 1.352526						
11.51666 127.0724 1.352188						
11.55000 127.4037 1.352010						
11.58333 127.7379 1.351988						
11.61667 128.0718 1.352214						
11.65000 128.4056 1.352364						
11.68334 128.7402 1.352405						
11.71666 129.0719 1.351937						
11.75000 129.4054 1.351792						
11.78334 129.7374 1.351834						
11.81666 130.0702 1.351624						
11.85000 130.4057 1.351891						
11.88333 130.7399 1.352322						
11.91667 131.0759 1.352337						
11.95000 131.4118 1.352522						
11.98334 131.7421 1.351912						
12.01666 132.0714 1.351335						
12.05000 132.4003 1.350719						
12.08333 132.7361 1.351234						
12.11667 133.0692 1.351374						
12.15000 133.4052 1.351866						
12.18334 133.7406 1.352112						
12.21666 134.0777 1.352275						
12.25000 134.4094 1.351991						
12.28334 134.7409 1.351344						
12.31666 135.0735 1.351490						
12.35000 135.4068 1.351514						
12.38333 135.7407 1.351562						
12.41667 136.0714 1.351232						
12.45000 136.4026 1.350960						
12.48334 136.7341 1.350761						
12.51666 137.0665 1.350738						
12.55000 137.4000 1.350820						
12.58333 137.7356 1.351213						
12.61667 138.0706 1.351431						
12.65000 138.4037 1.351259						
12.68334 138.7358 1.350852						
12.71666 139.0650 1.350276						
12.75000 139.3991 1.350312						
12.78334 139.7360 1.350966						
12.81667 140.0691 1.351047						
12.85000 140.4030 1.350855						
12.88333 140.7333 1.350351						
12.91667 141.0676 1.350495						
12.95000 141.4045 1.351100						
12.98334 141.7341 1.350312						
13.01666 142.0689 1.350495						
13.05000 142.4021 1.350592						
13.08333 142.7382 1.350869						
13.11667 143.0711 1.350804						
13.15000 143.4037 1.350530						
13.18333 143.7363 1.350378						
13.21666 144.0698 1.350238						
13.25000 144.4031 1.350394						
13.28334 144.7365 1.350420						
13.31667 145.0714 1.350619						
13.35000 145.4046 1.350598						
13.38333 145.7378 1.350478						
13.41667 146.0680 1.350061						
13.45000 146.3980 1.349459						
13.48334 146.7327 1.349755						
13.51666 147.0692 1.350600						
13.55000 147.4018 1.350501						
13.58333 147.7330 1.350166						
13.61667 148.0633 1.349508						
13.65000 148.3955 1.349409						
13.68333 148.7301 1.349733						
13.71666 149.0650 1.350029						
13.75000 149.4010 1.350199						
13.78334 149.7326 1.349994						
13.81667 150.0625 1.349395						
13.85000 150.3961 1.349474						
13.88333 150.7306 1.349776						
13.91667 151.0620 1.349216						
13.95000 151.3972 1.349446						
13.98334 151.7293 1.349578						
14.01666 152.0644 1.349620						
14.05000 152.3999 1.349957						
14.08333 152.7352 1.350228						
14.11667 153.0637 1.349316						
14.15000 153.3968 1.349219						
14.18333 153.7293 1.349276						
14.21666 154.0626 1.349285						
14.25000 154.3948 1.349315						
14.28334 154.7256 1.348870						
14.31667 155.0603 1.349251						
14.35000 155.3940 1.349229						
14.38333 155.7276 1.349426						
14.41667 156.0618 1.349290						
14.45000 156.3975 1.349619						
14.48334 156.7316 1.349536						
14.51666 157.0642 1.349384						
14.55000 157.4004 1.349458						
14.58333 157.7329 1.349170						
14.61667 158.0651 1.348810						
14.65000 158.3942 1.348306						
14.68333 158.7262 1.348157						
14.71666 159.0569 1.348059						
14.75000 159.3889 1.348006						
14.78334 159.7217 1.347875						
14.81667 160.0594 1.348491						
14.85000 160.3922 1.348530						
14.88333 160.7240 1.348109						
14.91667 161.0566 1.348019						
14.95000 161.3899 1.347974						
14.98334 161.7232 1.347802						
15.01666 162.0575 1.348005						
15.05000 162.3908 1.347944						
15.08333 162.7233 1.347787						
15.11667 163.0562 1.347604						
15.15000 163.3901 1.347756						
15.18333 163.7231 1.347740						
15.21666 164.0547 1.347540						
15.25000 164.3871 1.347447						
15.28334 164.7204 1.347385						
15.31667 165.0603 1.348147						
15.35000 165.3981 1.348907						
15.38333 165.7266 1.347752						
15.41667 166.0613 1.347533						
15.45000 166.3949 1.347885						
15.48334 166.7287 1.347745						
15.51666 167.0649 1.348017						
15.55000 167.3986 1.348132						
15.58333 167.7302 1.347700						
15.61667 168.0621 1.347582						
15.65000 168.3888 1.346982						
15.68333 168.7190 1.346826						
15.71666 169.0469 1.346188						
15.75000 169.3779 1.346166						
15.78334 169.7144 1.346784						
15.81667 170.0483 1.347045						
15.85000 170.3828 1.347052						
15.88333 170.7196 1.347319						
15.91667 171.0570 1.347638						
15.95000 171.3899 1.347308						
15.98334 171.7220 1.346962						
16.01666 172.0539 1.346880						
16.05000 172.3866 1.346837						
16.08334 172.7182 1.346681						
16.11667 173.0482 1.346306						
16.15000 173.3813 1.346214						
16.18333 173.7145 1.346398						
16.21667 174.0468 1.346195						
16.25000 174.3786 1.346184						
16.28333 174.7134 1.346204						
16.31667 175.0458 1.346349						
16.35000 175.3815 1.346496						
16.38333 175.7174 1.346720						
16.41666 176.0524 1.346701						
16.45000 176.3840 1.346417						
16.48334 176.7155 1.346054						
16.51666 177.0466 1.345864						
16.55000 177.3803 1.345984						
16.58334 177.7151 1.346008						
16.61667 178.0474 1.345994						
16.65000 178.3810 1.345928						
16.68333 178.7141 1.345956						
16.71667 179.0479 1.345805						
16.75000 179.3832 1.345940						
16.78333 179.7159 1.346062						
16.81667 180.0489 1.345756						
16.85000 180.3822 1.345771						
16.88333 180.7155 1.345691						
16.91666 181.0474 1.345766						
16.95000 181.3812 1.345523						
16.98334 181.7124 1.345383						
17.01666 182.0461 1.345329						
17.05000 182.3811 1.345455						
17.08334 182.7156 1.345681						
17.11667 183.0454 1.345152						
17.15000 183.3794 1.345242						
17.18333 183.7103 1.345098						
17.21667 184.0416 1.344802						
17.25000 184.3742 1.344828						
17.28333 184.7089 1.344957						
17.31667 185.0439 1.345005						
17.35000 185.3772 1.344905						
17.38333 185.7112 1.344914						
17.41666 186.0416 1.344525						
17.45000 186.3752 1.344434						
17.48334 186.7111 1.344783						
17.51666 187.0444 1.344810						
17.55000 187.3772 1.344621						
17.58334 187.7046 1.343956						
17.61667 188.0336 1.343389						
17.65000 188.3706 1.344086						
17.68333 188.7030 1.344237						
17.71667 189.0342 1.343690						
17.75000 189.3720 1.344319						
17.78333 189.7098 1.344705						
17.81667 190.0458 1.344718						
17.85000 190.3812 1.344816						
17.88333 190.7120 1.344198						
17.91666 191.0460 1.343994						
17.95000 191.3778 1.343919						
17.98334 191.7095 1.343732						
18.01666 192.0416 1.343607						
18.05000 192.3740 1.343554						
18.08334 192.7036 1.343157						
18.11667 193.0356 1.343132						
18.15000 193.3674 1.343105						
18.18333 193.7006 1.342889						
18.21667 194.0369 1.343226						
18.25000 194.3698 1.343420						
18.28333 194.6995 1.342750						
18.31667 195.0369 1.342958						
18.35000 195.3713 1.343280						
18.38333 195.7043 1.343044						
18.41666 196.0383 1.342953						
18.45000 196.3711 1.342782						
18.48334 196.7040 1.342712						
18.51666 197.0384 1.342541						
18.55000 197.3719 1.342863						
18.58334 197.7049 1.342601						
18.61667 198.0408 1.342852						
18.65000 198.3743 1.342829						
18.68333 198.7063 1.342283						
18.71667 199.0408 1.342498						
18.75000 199.3728 1.342382						
18.78333 199.7043 1.342053						
18.81667 200.0334 1.341714						
18.85000 200.3636 1.341320						
18.88333 200.6988 1.341578						
18.91666 201.0343 1.341940						
18.95000 201.3663 1.341739						
18.98334 201.6965 1.341351						
19.01666 202.0308 1.341389						
19.05000 202.3666 1.341595						
19.08334 202.6996 1.341631						
19.11667 203.0326 1.341317						
19.15000 203.3675 1.341445						
19.18333 203.7029 1.341599						
19.21667 204.0373 1.341782						
19.25000 204.3658 1.340938						
19.28333 204.6923 1.340199						
19.31667 205.0242 1.340171						
19.35000 205.3586 1.340614						
19.38333 205.6914 1.340657						
19.41666 206.0265 1.340590						
19.45000 206.3639 1.340922						
19.48334 206.6990 1.341080						
19.51666 207.0339 1.341057						
19.55000 207.3638 1.340587						
19.58334 207.6926 1.339935						
19.61667 208.0240 1.339864						
19.65000 208.3590 1.340151						
19.68333 208.6898 1.339976						
19.71667 209.0241 1.340029						
19.75000 209.3574 1.340077						
19.78333 209.6902 1.339850						
19.81667 210.0225 1.339738						
19.85000 210.3562 1.339587						
19.88333 210.6889 1.339585						
19.91666 211.0209 1.339169						
19.95000 211.3523 1.339159						
19.98334 211.6848 1.339170						
20.01666 212.0204 1.339224						
20.05000 212.3520 1.339031						
20.08334 212.6853 1.338811						
20.11667 213.0172 1.338666						
20.15000 213.3506 1.338628						
20.18333 213.6858 1.338712						
20.21667 214.0208 1.338822						
20.25000 214.3553 1.338788						
20.28333 214.6886 1.338665						
20.31667 215.0209 1.338261						
20.35000 215.3544 1.338294						
20.38333 215.6916 1.338569						
20.41666 216.0219 1.338172						
20.45000 216.3541 1.337704						
20.48334 216.6867 1.337848						
20.51666 217.0195 1.337754						
20.55000 217.3512 1.337380						
20.58334 217.6828 1.337129						
20.61667 218.0148 1.336902						
20.65000 218.3496 1.337066						
20.68333 218.6831 1.337170						
20.71667 219.0175 1.337019						
20.75000 219.3515 1.337017						
20.78333 219.6861 1.336872						
20.81667 220.0178 1.336744						
20.85000 220.3476 1.336082						
20.88333 220.6790 1.335868						
20.91666 221.0108 1.335622						
20.95000 221.3436 1.335522						
20.98334 221.6793 1.335819						
21.01666 222.0172 1.336066						
21.05000 222.3552 1.336445						
21.08334 222.6870 1.335978						
21.11667 223.0183 1.335397						
21.15000 223.3485 1.335072						
21.18333 223.6806 1.334932						
21.21667 224.0122 1.334694						
21.25000 224.3441 1.334362						
21.28333 224.6818 1.334684						
21.31667 225.0184 1.335029						
21.35000 225.3490 1.334575						
21.38333 225.6807 1.334012						
21.41666 226.0134 1.333828						
21.45000 226.3460 1.333606						
21.48334 226.6791 1.333394						
21.51666 227.0145 1.333549						
21.55000 227.3484 1.333473						
21.58334 227.6803 1.333185						
21.61667 228.0138 1.332885						
21.65000 228.3468 1.332672						
21.68333 228.6794 1.332530						
21.71667 229.0145 1.332480						
21.75000 229.3494 1.332412						
21.78333 229.6834 1.332248						
21.81667 230.0189 1.332128						
21.85000 230.3540 1.332279						
21.88333 230.6858 1.331659						
21.91666 231.0163 1.331156						
21.95000 231.3462 1.330685						
21.98334 231.6777 1.330386						
22.01666 232.0087 1.330191						
22.05000 232.3424 1.329975						
22.08334 232.6786 1.330187						
22.11667 233.0148 1.330246						
22.15000 233.3500 1.330150						
22.18333 233.6832 1.329844						
22.21667 234.0141 1.329314						
22.25000 234.3452 1.328592						
22.28333 234.6775 1.328341						
22.31667 235.0090 1.328095						
22.35000 235.3398 1.327806						
22.38333 235.6728 1.327491						
22.41666 236.0067 1.327282						
22.45000 236.3440 1.327470						
22.48334 236.6813 1.327551						
22.51666 237.0138 1.326877						
22.55000 237.3476 1.326546						
22.58334 237.6796 1.326063						
22.61667 238.0127 1.325708						
22.65000 238.3459 1.325488						
22.68333 238.6802 1.325322						
22.71667 239.0135 1.324932						
22.75000 239.3468 1.324660						
22.78333 239.6789 1.324152						
22.81667 240.0123 1.323812						
22.85000 240.3446 1.323494						
22.88333 240.6765 1.322933						
22.91666 241.0088 1.322465						
22.95000 241.3422 1.322258						
22.98334 241.6787 1.322204						
23.01666 242.0132 1.322033						
23.05000 242.3438 1.321191						
23.08334 242.6742 1.320396						
23.11667 243.0078 1.320194						
23.15000 243.3418 1.319932						
23.18333 243.6734 1.319442						
23.21667 244.0068 1.318944						
23.25000 244.3400 1.318516						
23.28333 244.6737 1.318140						
23.31667 245.0062 1.317509						
23.35000 245.3418 1.317236						
23.38333 245.6755 1.316671						
23.41666 246.0085 1.316022						
23.45000 246.3427 1.315706						
23.48334 246.6769 1.315180						
23.51666 247.0106 1.314711						
23.55000 247.3468 1.314337						
23.58334 247.6762 1.313552						
23.61667 248.0082 1.312686						
23.65000 248.3418 1.312392						
23.68333 248.6767 1.311858						
23.71667 249.0116 1.311500						
23.75000 249.3460 1.311172						
23.78333 249.6804 1.310503						
23.81667 250.0102 1.309420						
23.85000 250.3417 1.308601						
23.88333 250.6752 1.308054						
23.91666 251.0075 1.307391						
23.95000 251.3411 1.306629						
23.98334 251.6732 1.306030						
24.01666 252.0050 1.305102						
24.05000 252.3360 1.304268						
24.08334 252.6680 1.303576						
24.11667 253.0011 1.302948						
24.15000 253.3336 1.302191						
24.18333 253.6652 1.301292						
24.21667 253.9986 1.300404						
24.25000 254.3371 1.300187						
24.28333 254.6765 1.299930						
24.31667 255.0129 1.299295						
24.35000 255.3520 1.298717						
24.38333 255.6806 1.297446						
24.41666 256.0075 1.295556						
24.45000 256.3377 1.294592						
24.48334 256.6646 1.293352						
24.51666 256.9941 1.292445						
24.55000 257.3303 1.291952						
24.58334 257.6675 1.291668						
24.61667 258.0047 1.291146						
24.65000 258.3401 1.290034						
24.68333 258.6777 1.289535						
24.71667 259.0137 1.288694						
24.75000 259.3428 1.287273						
24.78333 259.6722 1.285806						
24.81667 260.0064 1.284844						
24.85000 260.3414 1.284354						
24.88333 260.6734 1.283132						
24.91666 261.0031 1.281705						
24.95000 261.3348 1.280594						
24.98334 261.6681 1.279717						
25.01666 261.9988 1.278424						
25.05000 262.3322 1.277458						
25.08334 262.6668 1.276514						
25.11667 263.0021 1.275646						
25.15000 263.3382 1.274721						
25.18333 263.6704 1.273336						
25.21667 264.0032 1.272121						
25.25000 264.3354 1.270841						
25.28333 264.6690 1.269749						
25.31667 265.0036 1.268791						
25.35000 265.3341 1.267432						
25.38333 265.6630 1.265666						
25.41666 265.9921 1.264118						
25.45000 266.3254 1.262992						
25.48334 266.6596 1.262150						
25.51666 266.9920 1.260649						
25.55000 267.3280 1.259633						
25.58334 267.6650 1.258656						
25.61666 267.9993 1.257431						
25.65000 268.3367 1.256344						
25.68333 268.6720 1.255115						
25.71667 269.0066 1.253871						
25.75000 269.3368 1.252227						
25.78333 269.6704 1.250639						
25.81667 270.0036 1.249256						
25.85000 270.3350 1.247790						
25.88334 270.6678 1.246504						
25.91666 271.0009 1.245130						
25.95000 271.3334 1.243553						
25.98334 271.6655 1.242077						
26.01666 271.9978 1.240468						
26.05000 272.3308 1.239026						
26.08334 272.6619 1.237318						
26.11666 272.9938 1.235830						
26.15000 273.3256 1.234078						
26.18333 273.6592 1.232506						
26.21667 273.9954 1.231334						
26.25000 274.3359 1.230320						
26.28333 274.6768 1.229527						
26.31667 275.0115 1.227480						
26.35000 275.3472 1.225910						
26.38334 275.6791 1.223961						
26.41666 276.0076 1.221853						
26.45000 276.3299 1.219127						
26.48334 276.6606 1.217403						
26.51666 276.9913 1.215840						
26.55000 277.3232 1.214036						
26.58334 277.6575 1.212521						
26.61666 277.9922 1.210792						
26.65000 278.3338 1.209645						
26.68333 278.6700 1.208073						
26.71667 279.0022 1.205730						
26.75000 279.3300 1.203275						
26.78333 279.6578 1.200526						
26.81667 279.9986 1.199321						
26.85000 280.3389 1.198449						
26.88334 280.6724 1.196196						
26.91666 281.0033 1.193604						
26.95000 281.3303 1.190873						
26.98334 281.6634 1.188758						
27.01666 282.0004 1.187326						
27.05000 282.3332 1.185209						
27.08334 282.6633 1.182577						
27.11666 282.9928 1.179672						
27.15000 283.3252 1.177888						
27.18333 283.6582 1.175433						
27.21667 283.9905 1.173151						
27.25000 284.3274 1.170961						
27.28333 284.6633 1.169028						
27.31667 284.9954 1.166266						
27.35000 285.3281 1.163600						
27.38334 285.6621 1.161159						
27.41666 285.9972 1.158818						
27.45000 286.3308 1.156189						
27.48334 286.6631 1.153498						
27.51666 286.9961 1.150737						
27.55000 287.3327 1.148328						
27.58334 287.6687 1.146015						
27.61666 287.9992 1.142921						
27.65000 288.3295 1.139628						
27.68333 288.6648 1.137072						
27.71667 288.9980 1.134473						
27.75000 289.3291 1.131283						
27.78333 289.6600 1.128061						
27.81667 289.9926 1.125084						
27.85000 290.3260 1.122139						
27.88334 290.6590 1.119078						
27.91666 290.9910 1.115852						
27.95000 291.3224 1.112399						
27.98334 291.6542 1.109081						
28.01666 291.9895 1.106136						
28.05000 292.3223 1.102794						
28.08334 292.6591 1.099514						
28.11666 292.9987 1.097069						
28.15000 293.3304 1.093122						
28.18333 293.6620 1.089272						
28.21667 293.9967 1.085834						
28.25000 294.3287 1.082237						
28.28333 294.6637 1.078699						
28.31667 294.9942 1.074913						
28.35000 295.3270 1.071115						
28.38334 295.6592 1.067278						
28.41666 295.9943 1.063633						
28.45000 296.3288 1.059936						
28.48334 296.6632 1.056045						
28.51666 296.9973 1.051994						
28.55000 297.3282 1.047787						
28.58334 297.6610 1.043710						
28.61666 297.9960 1.039761						
28.65000 298.3304 1.035614						
28.68333 298.6628 1.031338						
28.71667 298.9950 1.026930						
28.75000 299.3290 1.022664						
28.78333 299.6616 1.018223						
28.81667 299.9917 1.013427						
28.85000 300.3229 1.008825						
28.88334 300.6572 1.004337						
28.91666 300.9894 0.9997625						
28.95000 301.3238 0.9951182						
28.98334 301.6564 0.9903303						
29.01666 301.9895 0.9855291						
29.05000 302.3234 0.9807256						
29.08334 302.6570 0.9758856						
29.11666 302.9913 0.9709416						
29.15000 303.3256 0.9660247						
29.18333 303.6577 0.9608330						
29.21667 303.9900 0.9556426						
29.25000 304.3250 0.9505800						
29.28333 304.6604 0.9456241						
29.31667 304.9956 0.9405099						
29.35000 305.3276 0.9349681						
29.38334 305.6590 0.9292906						
29.41666 305.9902 0.9236562						
29.45000 306.3229 0.9181939						
29.48334 306.6543 0.9125594						
29.51666 306.9877 0.9070786						
29.55000 307.3216 0.9015034						
29.58334 307.6573 0.8959444						
29.61666 307.9885 0.8900674						
29.65000 308.3181 0.8838653						
29.68333 308.6495 0.8778870						
29.71667 308.9827 0.8719906						
29.75000 309.3154 0.8660165						
29.78333 309.6474 0.8599214						
29.81667 309.9809 0.8538169						
29.85000 310.3132 0.8476626						
29.88334 310.6444 0.8413414						
29.91666 310.9800 0.8351922						
29.95000 311.3174 0.8294430						
29.98334 311.6552 0.8232288						
30.01666 311.9956 0.8173796						
30.05000 312.3348 0.8113939						
30.08334 312.6665 0.8047094						
30.11666 312.9946 0.7974335						
30.15000 313.3204 0.7902978						
30.18333 313.6492 0.7837466						
30.21667 313.9784 0.7771936						
30.25000 314.3132 0.7708762						
30.28333 314.6504 0.7646868						
30.31667 314.9823 0.7580203						
30.35000 315.3104 0.7506501						
30.38334 315.6424 0.7437329						
30.41666 315.9790 0.7375049						
30.45000 316.3148 0.7309132						
30.48334 316.6479 0.7240958						
30.51666 316.9804 0.7170188						
30.55000 317.3137 0.7100910						
30.58334 317.6508 0.7035181						
30.61666 317.9877 0.6970276						
30.65000 318.3255 0.6904340						
30.68333 318.6600 0.6834656						
30.71667 318.9900 0.6761848						
30.75000 319.3234 0.6692746						
30.78333 319.6556 0.6623194						
30.81667 319.9871 0.6553658						
30.85000 320.3177 0.6482695						
30.88334 320.6492 0.6412358						
30.91666 320.9795 0.6342058						
30.95000 321.3126 0.6271328						
30.98334 321.6450 0.6203716						
31.01666 321.9785 0.6134010						
31.05000 322.3114 0.6064820						
31.08334 322.6449 0.5994575						
31.11666 322.9852 0.5930290						
31.15000 323.3240 0.5868344						
31.18333 323.6560 0.5793945						
31.21667 323.9864 0.5720460						
31.25000 324.3163 0.5646889						
31.28333 324.6463 0.5576926						
31.31667 324.9790 0.5508448						
31.35000 325.3115 0.5440069						
31.38334 325.6489 0.5375937						
31.41666 325.9870 0.5313360						
31.45000 326.3241 0.5247284						
31.48334 326.6550 0.5176384						
31.51666 326.9880 0.5106298						
31.55000 327.3189 0.5038622						
31.58334 327.6475 0.4968527						
31.61666 327.9790 0.4900168						
31.65000 328.3098 0.4832721						
31.68333 328.6422 0.4767136						
31.71667 328.9780 0.4705104						
31.75000 329.3094 0.4636697						
31.78333 329.6463 0.4572859						
31.81667 329.9798 0.4507978						
31.85000 330.3153 0.4442685						
31.88334 330.6556 0.4383920						
31.91666 330.9882 0.4320407						
31.95000 331.3188 0.4250890						
31.98334 331.6541 0.4190897						
32.01666 331.9829 0.4124832						
32.05000 332.3137 0.4059717						
32.08333 332.6500 0.4002334						
32.11666 332.9869 0.3944312						
32.15000 333.3213 0.3884820						
32.18334 333.6550 0.3824684						
32.21667 333.9870 0.3762529						
32.25000 334.3206 0.3702761						
32.28333 334.6536 0.3645662						
32.31666 334.9844 0.3587114						
32.35000 335.3147 0.3527744						
32.38334 335.6462 0.3471447						
32.41667 335.9802 0.3417166						
32.45000 336.3153 0.3366254						
32.48334 336.6514 0.3314704						
32.51666 336.9862 0.3262398						
32.55000 337.3204 0.3210049						
32.58333 337.6536 0.3159136						
32.61666 337.9824 0.3105044						
32.65000 338.3134 0.3054156						
32.68334 338.6466 0.3006870						
32.71667 338.9807 0.2962724						
32.75000 339.3142 0.2917316						
32.78333 339.6484 0.2871860						
32.81666 339.9846 0.2829810						
32.85000 340.3192 0.2787726						
32.88334 340.6522 0.2745369						
32.91667 340.9831 0.2702850						
32.95000 341.3142 0.2662197						
32.98334 341.6451 0.2623710						
33.01666 341.9787 0.2586446						
33.05000 342.3136 0.2553322						
33.08333 342.6470 0.2519384						
33.11666 342.9780 0.2481465						
33.15000 343.3098 0.2447430						
33.18334 343.6428 0.2415713						
33.21667 343.9753 0.2386058						
33.25000 344.3080 0.2356627						
33.28333 344.6440 0.2331558						
33.31666 344.9766 0.2304094						
33.35000 345.3074 0.2274389						
33.38334 345.6375 0.2246692						
33.41667 345.9731 0.2223992						
33.45000 346.3046 0.2201216						
33.48334 346.6376 0.2177910						
33.51666 346.9724 0.2156398						
33.55000 347.3062 0.2137127						
33.58333 347.6394 0.2116114						
33.61666 347.9718 0.2094030						
33.65000 348.3040 0.2074887						
33.68334 348.6365 0.2055684						
33.71667 348.9723 0.2039068						
33.75000 349.3058 0.2022662						
33.78333 349.6407 0.2007026						
33.81666 349.9748 0.1992155						
33.85000 350.3075 0.1975644						
33.88334 350.6400 0.1959297						
33.91667 350.9710 0.1944205						
33.95000 351.3052 0.1930262						
33.98334 351.6367 0.1915426						
34.01666 351.9705 0.1902551						
34.05000 352.3040 0.1888945						
34.08333 352.6370 0.1876501						
34.11666 352.9720 0.1865859						
34.15000 353.3075 0.1856252						
34.18334 353.6434 0.1845124						
34.21667 353.9779 0.1833178						
34.25000 354.3085 0.1820303						
34.28333 354.6391 0.1806696						
34.31666 354.9718 0.1795433						
34.35000 355.3106 0.1790910						
34.38334 355.6498 0.1785810						
34.41667 355.9836 0.1774067						
34.45000 356.3142 0.1760836						
34.48334 356.6428 0.1745757						
34.51666 356.9740 0.1734685						
34.55000 357.3062 0.1726423						
34.58333 357.6406 0.1717715						
34.61666 357.9760 0.1712162						
34.65000 358.3055 0.1698259						
34.68334 358.6398 0.1689291						
34.71667 358.9754 0.1684396						
34.75000 359.3097 0.1675140						
34.78333 359.6461 0.1668553						
34.81666 359.9820 0.1662651						
34.85000 360.3144 0.1652620						
34.88334 360.6504 0.1644828						
34.91667 360.9828 0.1637052						
34.95000 361.3154 0.1625934						
34.98334 361.6445 0.1616247						
35.01666 361.9786 0.1606048						
35.05000 362.3108 0.1602234						
35.08333 362.6460 0.1596000						
35.11666 362.9798 0.1588878						
35.15000 363.3135 0.1579282						
35.18334 363.6478 0.1572417						
35.21667 363.9820 0.1564434						
35.25000 364.3152 0.1557366						
35.28333 364.6504 0.1550540						
35.31666 364.9835 0.1543482						
35.35000 365.3178 0.1534697						
35.38334 365.6509 0.1527196						
35.41667 365.9845 0.1520647						
35.45000 366.3186 0.1513942						
35.48334 366.6522 0.1506321						
35.51666 366.9854 0.1497241						
35.55000 367.3190 0.1489542						
35.58333 367.6548 0.1485290						
35.61666 367.9866 0.1476232						
35.65000 368.3210 0.1469030						
35.68334 368.6548 0.1462904						
35.71667 368.9890 0.1456785						
35.75000 369.3205 0.1448998						
35.78333 369.6526 0.1438962						
35.81666 369.9866 0.1432014						
35.85000 370.3216 0.1428950						
35.88334 370.6549 0.1420178						
35.91667 370.9883 0.1413064						
35.95000 371.3211 0.1405529						
35.98334 371.6534 0.1395851						
36.01666 371.9860 0.1389359						
36.05000 372.3206 0.1384939						
36.08333 372.6558 0.1379169						
36.11666 372.9907 0.1372931						
36.15000 373.3246 0.1365358						
36.18334 373.6604 0.1360513						
36.21667 373.9944 0.1355665						
36.25000 374.3240 0.1343980						
36.28333 374.6556 0.1335726						
36.31666 374.9898 0.1331141						
36.35000 375.3256 0.1328157						
36.38334 375.6618 0.1323472						
36.41667 375.9934 0.1314699						
36.45000 376.3244 0.1304269						
36.48334 376.6548 0.1296381						
36.51666 376.9884 0.1291228						
36.55000 377.3214 0.1285429						
36.58333 377.6532 0.1275734						
36.61666 377.9905 0.1272393						
36.65000 378.3272 0.1271261						
36.68334 378.6612 0.1261797						
36.71667 378.9970 0.1258314						
36.75000 379.3325 0.1254135						
36.78333 379.6605 0.1242031						
36.81666 379.9885 0.1230602						
36.85000 380.3203 0.1226025						
36.88334 380.6550 0.1221357						
36.91667 380.9876 0.1215805						
36.95000 381.3200 0.1207571						
36.98334 381.6562 0.1202144						
37.01666 381.9990 0.1207150						
37.05000 382.3353 0.1202769						
37.08333 382.6662 0.1191539						
37.11666 382.9923 0.1177842						
37.15000 383.3211 0.1168470						
37.18334 383.6554 0.1165877						
37.21667 383.9908 0.1164055						
37.25000 384.3255 0.1160074						
37.28333 384.6578 0.1153906						
37.31666 384.9868 0.1141895						
37.35000 385.3202 0.1136673						
37.38334 385.6536 0.1131760						
37.41667 385.9880 0.1128018						
37.45000 386.3219 0.1122551						
37.48334 386.6584 0.1119623						
37.51666 386.9902 0.1113314						
37.55000 387.3206 0.1102593						
37.58333 387.6570 0.1099049						
37.61666 387.9953 0.1099399						
37.65000 388.3305 0.1096149						
37.68334 388.6610 0.1085704						
37.71667 388.9914 0.1079528						
37.75000 389.3214 0.1069433						
37.78333 389.6577 0.1067153						
37.81666 389.9938 0.1068494						
37.85000 390.3274 0.1063056						
37.88334 390.6578 0.1054301						
37.91667 390.9934 0.1050165						
37.95000 391.3281 0.1048003						
37.98334 391.6612 0.1043442						
38.01666 391.9930 0.1037196						
38.05000 392.3248 0.1030703						
38.08333 392.6559 0.1025682						
38.11666 392.9902 0.1019831						
38.15000 393.3271 0.1020977						
38.18334 393.6585 0.1014833						
38.21667 393.9888 0.1005558						
38.25000 394.3213 0.1000180						
38.28333 394.6550 0.09946681						
38.31666 394.9906 0.09948500						
38.35000 395.3230 0.09892828						
38.38334 395.6590 0.09862250						
38.41667 395.9917 0.09810764						
38.45000 396.3259 0.09753399						
38.48334 396.6626 0.09755688						
38.51666 396.9918 0.09679556						
38.55000 397.3225 0.09580634						
38.58333 397.6568 0.09562508						
38.61666 397.9890 0.09527836						
38.65000 398.3220 0.09479053						
38.68334 398.6584 0.09466344						
38.71667 398.9946 0.09444321						
38.75000 399.3286 0.09405303						
38.78333 399.6645 0.09377478						
38.81666 399.9981 0.09338686						
38.85000 400.3301 0.09276249						
38.88334 400.6630 0.09235522						
38.91667 400.9969 0.09225196						
38.95000 401.3281 0.09169121						
38.98334 401.6628 0.09128445						
39.01666 401.9964 0.09106457						
39.05000 402.3308 0.09071793						
39.08333 402.6597 0.08996668						
39.11666 402.9922 0.08947514						
39.15000 403.3236 0.08925601						
39.18334 403.6583 0.08879981						
39.21667 403.9963 0.08899312						
39.25000 404.3289 0.08851630						
39.28333 404.6638 0.08813908						
39.31666 404.9961 0.08769501						
39.35000 405.3261 0.08695350						
39.38334 405.6621 0.08683232						
39.41667 405.9976 0.08698518						
39.45000 406.3286 0.08642211						
39.48334 406.6625 0.08601699						
39.51666 406.9963 0.08579681						
39.55000 407.3288 0.08546959						
39.58333 407.6650 0.08531792						
39.61666 407.9991 0.08513451						
39.65000 408.3333 0.08465424						
39.68334 408.6662 0.08437782						
39.71667 408.9981 0.08402465						
39.75000 409.3306 0.08353580						
39.78333 409.6619 0.08301634						
39.81666 409.9945 0.08278075						
39.85000 410.3250 0.08235898						
39.88334 410.6609 0.08215061						
39.91667 410.9962 0.08224768						
39.95000 411.3298 0.08186000						
39.98334 411.6625 0.08141094						
40.01666 411.9967 0.08101949						
40.05000 412.3332 0.08114648						
40.08333 412.6674 0.08084179						
40.11666 413.0016 0.08058762						
40.15000 413.3363 0.08040321						
40.18334 413.6707 0.08026062						
40.21667 414.0026 0.07974631						
40.25000 414.3340 0.07905282						
40.28333 414.6679 0.07867268						
40.31666 415.0002 0.07815320						
40.35000 415.3312 0.07740465						
40.38334 415.6655 0.07734870						
40.41667 415.9996 0.07713332						
40.45000 416.3338 0.07692505						
40.48334 416.6641 0.07632590						
40.51666 416.9974 0.07585641						
40.55000 417.3306 0.07574356						
40.58333 417.6635 0.07546274						
40.61666 417.9972 0.07516944						
40.65000 418.3310 0.07495370						
40.68334 418.6656 0.07478590						
40.71667 419.0007 0.07469722						
40.75000 419.3366 0.07459653						
40.78333 419.6696 0.07418238						
40.81666 419.9980 0.07333025						
40.85000 420.3270 0.07260220						
40.88334 420.6594 0.07239978						
40.91667 421.0004 0.07338852						
40.95000 421.3364 0.07350882						
40.98334 421.6694 0.07279156						
41.01666 422.0022 0.07223872						
41.05000 422.3366 0.07214030						
41.08333 422.6672 0.07152888						
41.11666 423.0036 0.07162010						
41.15000 423.3351 0.07116094						
41.18334 423.6632 0.07039631						
41.21667 423.9941 0.06984612						
41.25000 424.3293 0.06970202						
41.28333 424.6666 0.07016234						
41.31666 425.0008 0.06998450						
41.35000 425.3365 0.06972620						
41.38334 425.6756 0.06993922						
41.41667 426.0106 0.06972194						
41.45000 426.3402 0.06895242						
41.48334 426.6737 0.06877263						
41.51666 427.0030 0.06829129						
41.55000 427.3339 0.06780068						
41.58333 427.6682 0.06787472						
41.61666 427.9971 0.06723743						
41.65000 428.3260 0.06651782						
41.68334 428.6668 0.06718818						
41.71667 429.0068 0.06769855						
41.75000 429.3424 0.06754738						
41.78333 429.6760 0.06714136						
41.81666 430.0086 0.06670838						
41.85000 430.3418 0.06668468						
41.88334 430.6740 0.06622119						
41.91667 431.0010 0.06581415						
41.95000 431.3347 0.06544404						
41.98334 431.6700 0.06589848						
42.01666 431.9979 0.06495346						
42.05000 432.3324 0.06499720						
42.08333 432.6682 0.06490679						
42.11666 433.0066 0.06515606						
42.15000 433.3440 0.06543570						
42.18334 433.6777 0.06497063						
42.21667 434.0111 0.06458695						
42.25000 434.3443 0.06443639						
42.28333 434.6760 0.06429387						
42.31666 435.0048 0.06374480						
42.35000 435.3366 0.06327249						
42.38334 435.6680 0.06307149						
42.41667 436.0034 0.06321042						
42.45000 436.3344 0.06294013						
42.48334 436.6678 0.06227063						
42.51666 437.0078 0.06305325						
42.55000 437.3446 0.06305728						
42.58333 437.6782 0.06273170						
42.61666 438.0102 0.06223376						
42.65000 438.3441 0.06216101						
42.68334 438.6763 0.06192020						
42.71667 439.0072 0.06171446						
42.75000 439.3388 0.06126808						
42.78333 439.6710 0.06115190						
42.81666 440.0030 0.06079620						
42.85000 440.3414 0.06122795						
42.88334 440.6746 0.06103702						
42.91667 441.0072 0.06053228						
42.95000 441.3415 0.06041878						
42.98334 441.6776 0.06043669						
43.01666 442.0122 0.06036234						
43.05000 442.3485 0.06031424						
43.08333 442.6874 0.06057465						
43.11666 443.0148 0.06013965						
43.15000 443.3434 0.05902658						
43.18334 443.6754 0.05904691						
43.21667 444.0124 0.05929034						
43.25000 444.3511 0.05966908						
43.28333 444.6880 0.05973994						
43.31666 445.0195 0.05890913						
43.35000 445.3562 0.05861256						
43.38334 445.6928 0.05841004						
43.41667 446.0312 0.05848160						
43.45000 446.3697 0.05847424						
43.48334 446.7083 0.05833013						
43.51666 447.0450 0.05807888						
43.55000 447.3840 0.05789045						
43.58333 447.7206 0.05824052						
43.61666 448.0532 0.05748242						
43.65000 448.3844 0.05677216						
43.68334 448.7204 0.05691426						
43.71667 449.0550 0.05683725						
43.75000 449.3892 0.05664511						
43.78333 449.7250 0.05659555						
43.81666 450.0574 0.05643966						
43.85000 450.3919 0.05618401						
43.88334 450.7276 0.05628556						
43.91667 451.0638 0.05631108						
43.95000 451.3950 0.05609106						
43.98334 451.7272 0.05550644						
44.01666 452.0632 0.05567402						
44.05000 452.3966 0.05559334						
44.08333 452.7278 0.05513274						
44.11666 453.0618 0.05504950						
44.15000 453.3963 0.05503399						
44.18334 453.7260 0.05464605						
44.21667 454.0572 0.05430054						
44.25000 454.3933 0.05454476						
44.28333 454.7270 0.05474257						
44.31666 455.0605 0.05432944						
44.35000 455.3916 0.05389734						
44.38334 455.7254 0.05373920						
44.41667 456.0602 0.05384579						
44.45000 456.3953 0.05393906						
44.48334 456.7281 0.05371368						
44.51666 457.0605 0.05344988						
44.55000 457.3889 0.05300968						
44.58333 457.7196 0.05236748						
44.61666 458.0567 0.05289807						
44.65000 458.3913 0.05311632						
44.68334 458.7270 0.05299986						
44.71667 459.0588 0.05275550						
44.75000 459.3904 0.05246394						
44.78333 459.7234 0.05246594						
44.81666 460.0556 0.05231977						
44.85000 460.3878 0.05203791						
44.88334 460.7184 0.05174520						
44.91667 461.0487 0.05143039						
44.95000 461.3797 0.05118604						
44.98334 461.7124 0.05113670						
45.01666 462.0424 0.05087633						
45.05000 462.3750 0.05064042						
45.08333 462.7080 0.05056182						
45.11666 463.0404 0.05042743						
45.15000 463.3744 0.05032921						
45.18334 463.7090 0.05031702						
45.21667 464.0422 0.05016828						
45.25000 464.3762 0.05004154						
45.28333 464.7097 0.05017531						
45.31666 465.0422 0.04991053						
45.35000 465.3743 0.04993313						
45.38334 465.7094 0.05003139						
45.41667 466.0394 0.04977668						
45.45000 466.3690 0.04927614						
45.48334 466.6989 0.04887735						
45.51666 467.0300 0.04870112						
45.55000 467.3628 0.04873034						
45.58333 467.6966 0.04877154						
45.61666 468.0302 0.04855752						
45.65000 468.3646 0.04838906						
45.68334 468.6973 0.04829960						
45.71667 469.0320 0.04814357						
45.75000 469.3707 0.04869266						
45.78333 469.7017 0.04816650						
45.81666 470.0360 0.04818366						
45.85000 470.3679 0.04818836						
45.88334 470.6950 0.04734583						
45.91667 471.0248 0.04659788						
45.95000 471.3594 0.04687113						
45.98334 471.6949 0.04699664						
46.01666 472.0306 0.04675414						
46.05000 472.3648 0.04629581						
46.08333 472.6980 0.04602137						
46.11666 473.0301 0.04560140						
46.15000 473.3628 0.04537854						
46.18334 473.6964 0.04532449						
46.21667 474.0266 0.04486378						
46.25000 474.3578 0.04433948						
46.28333 474.6896 0.04417157						
46.31666 475.0238 0.04417888						
46.35000 475.3582 0.04419906						
46.38334 475.6942 0.04425718						
46.41667 476.0310 0.04446002						
46.45000 476.3628 0.04419772						
46.48334 476.6992 0.04392612						
46.51666 477.0361 0.04445220						
46.55000 477.3707 0.04422582						
46.58333 477.7015 0.04385490						
46.61666 478.0305 0.04325187						
46.65000 478.3580 0.04277150						
46.68334 478.6896 0.04245067						
46.71667 479.0260 0.04274938						
46.75000 479.3627 0.04304098						
46.78333 479.6994 0.04301788						
46.81666 480.0338 0.04276584						
46.85000 480.3665 0.04245504						
46.88334 480.7010 0.04240469						
46.91667 481.0367 0.04257436						
46.95000 481.3696 0.04248472						
46.98334 481.7012 0.04212509						
47.01666 482.0336 0.04206604						
47.05000 482.3672 0.04207878						
47.08333 482.7003 0.04190455						
47.11666 483.0350 0.04189343						
47.15000 483.3705 0.04212869						
47.18334 483.7032 0.04167809						
47.21667 484.0347 0.04144196						
47.25000 484.3694 0.04146965						
47.28333 484.7033 0.04177092						
47.31666 485.0326 0.04103645						
47.35000 485.3606 0.04030287						
47.38334 485.6920 0.04008402						
47.41667 486.0260 0.04005306						
47.45000 486.3647 0.04045386						
47.48334 486.7062 0.04115865						
47.51666 487.0421 0.04128090						
47.55000 487.3710 0.04034853						
47.58333 487.7066 0.04044065						
47.61666 488.0421 0.04087146						
47.65000 488.3721 0.04033824						
47.68334 488.7000 0.03970336						
47.71667 489.0322 0.03949566						
47.75000 489.3717 0.04030948						
47.78333 489.7064 0.04015572						
47.81666 490.0400 0.04015964						
47.85000 490.3696 0.03944600						
47.88334 490.7008 0.03901887						
47.91667 491.0412 0.03970199						
47.95000 491.3816 0.04020810						
47.98334 491.7144 0.04008946						
48.01666 492.0476 0.03971709						
48.05000 492.3795 0.03934488						
48.08333 492.7209 0.04011300						
48.11666 493.0546 0.04052098						
48.15000 493.3821 0.03967187						
48.18334 493.7094 0.03877565						
48.21667 494.0426 0.03893146						
48.25000 494.3786 0.03949717						
48.28333 494.7160 0.03968454						
48.31666 495.0578 0.04073971						
48.35000 495.3859 0.04007029						
48.38334 495.7085 0.03865063						
48.41667 496.0340 0.03775066						
48.45000 496.3652 0.03776263						
48.48334 496.7016 0.03824658						
48.51666 497.0383 0.03860140						
48.55000 497.3833 0.03960698						
48.58333 497.7240 0.03977084						
48.61666 498.0590 0.03984231						
48.65000 498.3896 0.03915785						
48.68334 498.7205 0.03878060						
48.71667 499.0541 0.03892061						
48.75000 499.3875 0.03914432						
48.78333 499.7178 0.03898126						
48.81666 500.0492 0.03875143						
48.85000 500.3844 0.03888886						
48.88334 500.7226 0.03984818						
48.91667 501.0498 0.03888156						
48.95000 501.3808 0.03838883						
48.98334 501.7143 0.03844150						
49.01666 502.0450 0.03818865						
49.05000 502.3891 0.03905500						
49.08333 502.7284 0.03963362						
49.11666 503.0600 0.03937828						
49.15000 503.3869 0.03826386						
49.18334 503.7134 0.03763254						
49.21667 504.0527 0.03832824						
49.25000 504.3906 0.03924198						
49.28333 504.7234 0.03893439						
49.31666 505.0598 0.03907690						
49.35000 505.3880 0.03858102						
49.38334 505.7195 0.03792589						
49.41667 506.0528 0.03829792						
49.45000 506.3896 0.03843773						
49.48334 506.7286 0.03908380						
49.51666 507.0625 0.03911738						
49.55000 507.3951 0.03883296						
49.58333 507.7268 0.03860690						
49.61666 508.0579 0.03846996						
49.65000 508.3902 0.03833046						
49.68334 508.7197 0.03809534						
49.71667 509.0540 0.03802512						
49.75000 509.3922 0.03866024						
49.78333 509.7278 0.03894832						
49.81666 510.0602 0.03855063						
49.85000 510.3912 0.03828508						
49.88334 510.7271 0.03848471						
49.91667 511.0621 0.03882236						
49.95000 511.3929 0.03839126						
49.98334 511.7206 0.03778425						
50.01666 512.0536 0.03779521						
50.05000 512.3916 0.03844778						
50.08333 512.7275 0.03865864						
50.11666 513.0586 0.03814480						
50.15000 513.3906 0.03782641						
50.18334 513.7264 0.03815350						
50.21667 514.0627 0.03846687						
50.25000 514.3964 0.03863517						
50.28333 514.7310 0.03867805						
50.31666 515.0652 0.03878933						
50.35000 515.3963 0.03864307						
50.38334 515.7262 0.03830756						
50.41667 516.0574 0.03811421						
50.45000 516.3912 0.03815368						
50.48334 516.7284 0.03847385						
50.51666 517.0626 0.03860140						
50.55000 517.3978 0.03862084						
50.58333 517.7309 0.03844858						
50.61666 518.0624 0.03830250						
50.65000 518.3926 0.03802146						
50.68334 518.7202 0.03737965						
50.71667 519.0537 0.03734392						
50.75000 519.3906 0.03791237						
50.78333 519.7276 0.03818469						
50.81666 520.0626 0.03823572						
50.85000 520.4008 0.03840964						
50.88334 520.7364 0.03877662						
50.91667 521.0664 0.03823960						
50.95000 521.3984 0.03807773						
50.98334 521.7244 0.03735920						
51.01666 522.0547 0.03716701						
51.05000 522.3894 0.03737464						
51.08333 522.7286 0.03794287						
51.11666 523.0675 0.03853015						
51.15000 523.4044 0.03872676						
51.18334 523.7370 0.03872031						
51.21667 524.0652 0.03790406						
51.25000 524.3980 0.03805955						
51.28333 524.7306 0.03807241						
51.31666 525.0622 0.03790593						
51.35000 525.3936 0.03764045						
51.38334 525.7263 0.03756242						
51.41667 526.0620 0.03776796						
51.45000 526.3970 0.03785730						
51.48333 526.7289 0.03773830						
51.51667 527.0644 0.03766897						
51.55000 527.3994 0.03798638						
51.58333 527.7302 0.03752642						
51.61666 528.0649 0.03749302						
51.65000 528.3980 0.03754852						
51.68334 528.7314 0.03741330						
51.71667 529.0674 0.03771260						
51.75000 529.4010 0.03776998						
51.78333 529.7312 0.03728902						
51.81666 530.0657 0.03711344						
51.85000 530.4054 0.03790828						
51.88334 530.7413 0.03827436						
51.91667 531.0711 0.03777261						
51.95000 531.3955 0.03675384						
51.98333 531.7262 0.03646036						
52.01667 532.0600 0.03659704						
52.05000 532.4026 0.03779256						
52.08333 532.7353 0.03769630						
52.11666 533.0628 0.03659950						
52.15000 533.3938 0.03611184						
52.18334 533.7306 0.03668484						
52.21667 534.0698 0.03729468						
52.25000 534.4072 0.03777204						
52.28333 534.7418 0.03764160						
52.31666 535.0793 0.03830188						
52.35000 535.4092 0.03764185						
52.38334 535.7466 0.03830565						
52.41667 536.0766 0.03809569						
52.45000 536.4080 0.03785872						
52.48332 536.7395 0.03803105						
52.51668 537.0652 0.03721246						
52.55000 537.3956 0.03690378						
52.58332 537.7266 0.03674562						
52.61666 538.0615 0.03682014						
52.65000 538.3968 0.03687638						
52.68334 538.7304 0.03678792						
52.71668 539.0680 0.03690934						
52.75000 539.4084 0.03759438						
52.78332 539.7418 0.03766320						
52.81666 540.0736 0.03715660						
52.85000 540.4015 0.03675024						
52.88334 540.7326 0.03661660						
52.91668 541.0632 0.03648306						
52.95000 541.3977 0.03643711						
52.98332 541.7375 0.03730217						
53.01668 542.0714 0.03746638						
53.05000 542.4053 0.03693860						
53.08332 542.7401 0.03712485						
53.11666 543.0730 0.03716862						
53.15000 543.4035 0.03678606						
53.18334 543.7368 0.03675332						
53.21668 544.0661 0.03648567						
53.25000 544.3982 0.03633974						
53.28332 544.7295 0.03611674						
53.31666 545.0598 0.03587362						
53.35000 545.3965 0.03576810						
53.38334 545.7414 0.03701153						
53.41668 546.0824 0.03747846						
53.45000 546.4164 0.03732525						
53.48332 546.7456 0.03667947						
53.51668 547.0711 0.03598380						
53.55000 547.3972 0.03520488						
53.58332 547.7298 0.03537786						
53.61666 548.0645 0.03583544						
53.65000 548.4040 0.03647676						
53.68334 548.7364 0.03641378						
53.71668 549.0724 0.03588195						
53.75000 549.4108 0.03675443						
53.78332 549.7444 0.03643739						
53.81666 550.0777 0.03632593						
53.85000 550.4101 0.03597414						
53.88334 550.7500 0.03719040						
53.91668 551.0761 0.03632962						
53.95000 551.4070 0.03582258						
53.98332 551.7406 0.03601340						
54.01668 552.0744 0.03623762						
54.05000 552.4045 0.03568007						
54.08332 552.7358 0.03533380						
54.11666 553.0708 0.03541797						
54.15000 553.4078 0.03568574						
54.18334 553.7459 0.03594538						
54.21668 554.0826 0.03612009						
54.25000 554.4150 0.03573567						
54.28332 554.7524 0.03610145						
54.31666 555.0818 0.03591265						
54.35000 555.4195 0.03592412						
54.38334 555.7563 0.03696443						
54.41668 556.0868 0.03633496						
54.45000 556.4170 0.03589785						
54.48332 556.7495 0.03600464						
54.51668 557.0774 0.03551234						
54.55000 557.4078 0.03490254						
54.58332 557.7464 0.03533886						
54.61666 558.0834 0.03588222						
54.65000 558.4172 0.03566098						
54.68334 558.7515 0.03539424						
54.71668 559.0868 0.03551772						
54.75000 559.4211 0.03565256						
54.78332 559.7569 0.03554007						
54.81666 560.0899 0.03573762						
54.85000 560.4207 0.03527560						
54.88334 560.7528 0.03508352						
54.91668 561.0900 0.03540064						
54.95000 561.4277 0.03600270						
54.98332 561.7626 0.03607548						
55.01668 562.0924 0.03555186						
55.05000 562.4209 0.03489192						
55.08332 562.7502 0.03446398						
55.11666 563.0859 0.03469033						
55.15000 563.4232 0.03525145						
55.18334 563.7574 0.03527450						
55.21668 564.0902 0.03497470						
55.25000 564.4240 0.03493836						
55.28332 564.7630 0.03555974						
55.31666 565.0955 0.03545480						
55.35000 565.4285 0.03505713						
55.38334 565.7605 0.03507639						
55.41668 566.0930 0.03506236						
55.45000 566.4256 0.03517262						
55.48332 566.7570 0.03484850						
55.51668 567.0886 0.03454025						
55.55000 567.4210 0.03422228						
55.58332 567.7578 0.03457484						
55.61666 568.0928 0.03475663						
55.65000 568.4281 0.03469602						
55.68334 568.7632 0.03498515						
55.71668 569.0943 0.03451961						
55.75000 569.4285 0.03450768						
55.78332 569.7638 0.03484710						
55.81666 570.0944 0.03461042						
55.85000 570.4263 0.03433784						
55.88334 570.7596 0.03443972						
55.91668 571.0938 0.03427310						
55.95000 571.4277 0.03434298						
55.98332 571.7622 0.03441590						
56.01668 572.0997 0.03485620						
56.05000 572.4370 0.03533168						
56.08332 572.7726 0.03566650						
56.11666 573.1028 0.03504922						
56.15000 573.4326 0.03461746						
56.18334 573.7599 0.03405787						
56.21668 574.0894 0.03370969						
56.25000 574.4219 0.03375290						
56.28332 574.7571 0.03381643						
56.31666 575.0951 0.03414063						
56.35000 575.4309 0.03414382						
56.38334 575.7641 0.03389013						
56.41668 576.0955 0.03345502						
56.45000 576.4284 0.03333589						
56.48332 576.7649 0.03372226						
56.51668 577.1044 0.03420572						
56.55000 577.4482 0.03551431						
56.58332 577.7824 0.03559256						
56.61666 578.1106 0.03482155						
56.65000 578.4370 0.03386235						
56.68334 578.7720 0.03451149						
56.71668 579.1039 0.03478515						
56.75000 579.4331 0.03433463						
56.78332 579.7650 0.03409140						
56.81666 580.0958 0.03374283						
56.85000 580.4302 0.03387050						
56.88334 580.7620 0.03337456						
56.91668 581.0966 0.03300694						
56.95000 581.4349 0.03356392						
56.98332 581.7690 0.03357152						
57.01668 582.1015 0.03316112						
57.05000 582.4371 0.03328653						
57.08332 582.7695 0.03315192						
57.11666 583.1054 0.03321725						
57.15000 583.4418 0.03369004						
57.18334 583.7757 0.03353096						
57.21668 584.1058 0.03329033						
57.25000 584.4352 0.03309641						
57.28332 584.7672 0.03313202						
57.31666 585.1007 0.03307886						
57.35000 585.4379 0.03314472						
57.38334 585.7744 0.03342930						
57.41668 586.1071 0.03338376						
57.45000 586.4404 0.03331474						
57.48332 586.7750 0.03341004						
57.51668 587.1098 0.03337166						
57.55000 587.4422 0.03333342						
57.58332 587.7741 0.03281540						
57.61666 588.1080 0.03280525						
57.65000 588.4390 0.03239162						
57.68334 588.7719 0.03234015						
57.71668 589.1071 0.03247787						
57.75000 589.4412 0.03231274						
57.78332 589.7825 0.03335512						
57.81666 590.1187 0.03364988						
57.85000 590.4482 0.03296471						
57.88334 590.7762 0.03244882						
57.91668 591.1090 0.03220254						
57.95000 591.4446 0.03250870						
57.98332 591.7799 0.03264310						
58.01668 592.1113 0.03227821						
58.05000 592.4514 0.03292870						
58.08332 592.7820 0.03258908						
58.11666 593.1144 0.03210735						
58.15000 593.4462 0.03215480						
58.18334 593.7771 0.03150890						
58.21668 594.1116 0.03171562						
58.25000 594.4482 0.03175512						
58.28332 594.7886 0.03230589						
58.31666 595.1250 0.03255464						
58.35000 595.4585 0.03216268						
